Folder: impedance/data

Note: data/190117_014_GCAuI_GC_5mM_K3FeCN6_1M_Na2SO4_PEIS.txt
Jan. 17, 2019   11:53:51
A.C. Impedance
File: 190117_014_gcaui_gc_5mm_k3fecn6_1m_na2so4_peis
Data Source:  Experiment
Instrument Model:  CHI760E
Header: 
Note: 

Init E (V) = 0.272
High Frequency (Hz) = 1e+5
Low Frequency (Hz) = 1
Imp SF
Amplitude (V) = 0.005
Quiet Time (sec) = 180

Freq/Hz	Z'/ohm	Z"/ohm	Z/ohm	Phase/deg

8.252e+4	1.156e+1	-1.180e+0	1.162e+1	-5.8
6.812e+4	1.162e+1	-1.555e+0	1.172e+1	-7.6
5.625e+4	1.173e+1	-2.003e+0	1.190e+1	-9.7
4.644e+4	1.184e+1	-2.454e+0	1.209e+1	-11.7
3.833e+4	1.199e+1	-2.973e+0	1.235e+1	-13.9
3.164e+4	1.215e+1	-3.554e+0	1.266e+1	-16.3
2.612e+4	1.235e+1	-4.229e+0	1.305e+1	-18.9
2.153e+4	1.258e+1	-5.018e+0	1.354e+1	-21.7
1.777e+4	1.286e+1	-5.945e+0	1.417e+1	-24.8
1.470e+4	1.322e+1	-7.032e+0	1.497e+1	-28.0
1.211e+4	1.366e+1	-8.290e+0	1.598e+1	-31.3
1.001e+4	1.422e+1	-9.754e+0	1.724e+1	-34.5
8.252e+3	1.492e+1	-1.146e+1	1.881e+1	-37.5
6.812e+3	1.583e+1	-1.341e+1	2.075e+1	-40.3
5.625e+3	1.704e+1	-1.562e+1	2.312e+1	-42.5
4.643e+3	1.859e+1	-1.807e+1	2.593e+1	-44.2
3.833e+3	2.056e+1	-2.077e+1	2.922e+1	-45.3
3.164e+3	2.306e+1	-2.371e+1	3.307e+1	-45.8
2.612e+3	2.616e+1	-2.682e+1	3.746e+1	-45.7
2.153e+3	2.996e+1	-2.996e+1	4.237e+1	-45.0
1.777e+3	3.448e+1	-3.295e+1	4.769e+1	-43.7
1.470e+3	3.970e+1	-3.558e+1	5.331e+1	-41.9
1.211e+3	4.553e+1	-3.769e+1	5.911e+1	-39.6
1.001e+3	5.184e+1	-3.904e+1	6.490e+1	-37.0
8.252e+2	5.835e+1	-3.959e+1	7.052e+1	-34.2
6.836e+2	6.482e+1	-3.938e+1	7.584e+1	-31.3
5.615e+2	7.104e+1	-3.847e+1	8.079e+1	-28.4
4.639e+2	7.682e+1	-3.702e+1	8.527e+1	-25.7
3.809e+2	8.200e+1	-3.521e+1	8.924e+1	-23.2
3.174e+2	8.658e+1	-3.319e+1	9.273e+1	-21.0
2.588e+2	9.061e+1	-3.113e+1	9.581e+1	-19.0
2.148e+2	9.412e+1	-2.918e+1	9.854e+1	-17.2
1.758e+2	9.720e+1	-2.744e+1	1.010e+2	-15.8
1.465e+2	9.987e+1	-2.599e+1	1.032e+2	-14.6
1.221e+2	1.023e+2	-2.479e+1	1.053e+2	-13.6
9.766e+1	1.046e+2	-2.362e+1	1.073e+2	-12.7
8.254e+1	1.068e+2	-2.266e+1	1.091e+2	-12.0
6.813e+1	1.088e+2	-2.223e+1	1.111e+2	-11.5
5.623e+1	1.109e+2	-2.226e+1	1.132e+2	-11.3
4.642e+1	1.130e+2	-2.267e+1	1.153e+2	-11.3
3.831e+1	1.152e+2	-2.339e+1	1.175e+2	-11.5
3.162e+1	1.174e+2	-2.440e+1	1.199e+2	-11.7
2.610e+1	1.197e+2	-2.563e+1	1.224e+2	-12.1
2.154e+1	1.222e+2	-2.712e+1	1.251e+2	-12.5
1.778e+1	1.249e+2	-2.890e+1	1.282e+2	-13.0
1.468e+1	1.279e+2	-3.099e+1	1.316e+2	-13.6
1.212e+1	1.311e+2	-3.337e+1	1.352e+2	-14.3
1.000e+1	1.344e+2	-3.608e+1	1.392e+2	-15.0
8.254e+0	1.381e+2	-3.910e+1	1.435e+2	-15.8
6.813e+0	1.421e+2	-4.254e+1	1.483e+2	-16.7
5.623e+0	1.465e+2	-4.635e+1	1.537e+2	-17.6
4.642e+0	1.514e+2	-5.052e+1	1.596e+2	-18.5
3.831e+0	1.567e+2	-5.518e+1	1.662e+2	-19.4
3.162e+0	1.625e+2	-6.034e+1	1.734e+2	-20.4
2.610e+0	1.690e+2	-6.610e+1	1.814e+2	-21.4
2.154e+0	1.760e+2	-7.255e+1	1.904e+2	-22.4
1.778e+0	1.840e+2	-7.973e+1	2.006e+2	-23.4
1.468e+0	1.930e+2	-8.766e+1	2.120e+2	-24.4
1.212e+0	2.025e+2	-9.633e+1	2.243e+2	-25.4
1.000e+0	2.126e+2	-1.057e+2	2.374e+2	-26.4

Note: README.txt
New repository for impedance.py

File: 190508_002_100mM_K4FeCN6_100mM_K3FeCN6_50mLmin_PEIS_C01.mpt
EC-Lab ASCII FILE
Nb header lines : 64

Potentio Electrochemical Impedance Spectroscopy

Run on channel : 1 (SN 5680)
User : dorhoff
Electrode connection : standard
Ewe ctrl range : min = -0.10 V, max = 0.10 V
Ewe,I filtering : 50 kHz
Safety Limits :
	Do not start on E overload
Channel : Floating
Acquisition started on : 05-08-2019 16:02:23
Saved on :
	File : 190508_002_100mM_K4FeCN6_100mM_K3FeCN6_50mLmin_PEIS_C01.mpr
	Directory : C:\Data\BioLogic\dorhoff\Flow_cell_5_cm2\Ex_11_FeCN6_FeCN6\
	Host : 10.41.26.176
Device : SP-300 (SN 0955)
Address : USB
EC-Lab for windows v11.20 (software)
Internet server v11.20 (firmware)
Command interpretor v11.20 (firmware)
Electrode material :
Initial state :
Electrolyte :
Comments :
Current amplifier : B-10A5V
Cable : standard
Electrode surface area : 0.001 cm²
Characteristic mass : 0.001 g
Equivalent Weight : 0.000 g/eq.
Density : 0.000 g/cm3
Record EIS quality indicators
Cycle Definition : Charge/Discharge alternance
Mode                Single sine
E (V)               0.0000
vs.                 Eoc
tE (h:m:s)          0:00:0.0000
record              0
dI                  0.000
unit dI             mA
dt (s)              0.000
fi                  100.000
unit fi             kHz
ff                  0.100
unit ff             Hz
Nd                  12
Points              per decade
spacing             Logarithmic
Va (mV)             10.0
pw                  0.10
Na                  2
corr                0
E range min (V)     -0.100
E range max (V)     0.100
I Range             Auto
Bandwidth           8
nc cycles           0
goto Ns'            0
nr cycles           0
inc. cycle          0

freq/Hz	Re(Z)/Ohm	-Im(Z)/Ohm	|Z|/Ohm	Phase(Z)/deg	time/s	<Ewe>/V	<I>/mA	Cs/µF	Cp/µF	cycle number	I Range	|Ewe|/V	|I|/A	THD Ewe/%	NSD Ewe/%	NSR Ewe/%	THD I/%	NSD I/%	NSR I/%	Re(Y)/Ohm-1	Im(Y)/Ohm-1	|Y|/Ohm-1	Phase(Y)/deg
100004	0.209257	-0.0888113	0.227324	22.997	2.88047	-0.000101717	-17.4558	-17.9199	-2.73516	1	65	0.00982399	0.0432159	0.204178	0.163624	2.9394	0.552936	0.217222	7.55013	4.04941	-1.71862	4.39902	-22.997
67760.9	0.213049	-0.0584821	0.22093	15.3496	4.51847	-0.000103283	-17.1692	-40.1622	-2.81419	1	65	0.0105093	0.0475682	0.139283	0.0875075	2.70875	0.323962	0.269723	6.97842	4.36485	-1.19815	4.52631	-15.3496
45919.3	0.21572	-0.0386845	0.219161	10.1666	6.15648	-0.000100431	-17.0504	-89.5958	-2.79148	1	65	0.0104858	0.0478451	0.142915	0.0605878	2.7612	0.342017	0.207912	6.9068	4.49121	-0.805396	4.56285	-10.1666
31110.8	0.216841	-0.0247962	0.218254	6.52356	7.79448	-9.48197e-05	-17.1739	-206.312	-2.663	1	65	0.0104147	0.0477183	0.14147	0.0945315	2.72137	0.286615	0.222968	6.83503	4.55216	-0.520549	4.58182	-6.52356
21080.8	0.218239	-0.0159865	0.218824	4.18957	9.43249	-9.91818e-05	-17.1323	-472.258	-2.52058	1	65	0.0103083	0.0471076	0.160557	0.103298	2.80694	0.355581	0.191947	6.99613	4.55768	-0.333861	4.56989	-4.18957
14288.9	0.218827	-0.00990182	0.219051	2.59084	11.0705	-9.85666e-05	-17.1156	-1124.88	-2.29852	1	65	0.0101664	0.0464112	0.194661	0.0875696	2.78654	0.402382	0.164324	7.16533	4.56049	-0.20636	4.56516	-2.59084
9677.48	0.219519	-0.0062716	0.219609	1.63648	12.5805	-0.000204878	-17.4582	-2622.29	-2.13864	1	65	0.0102987	0.0468955	0.13921	0.072003	2.77969	0.4206	0.184172	7.11596	4.5517	-0.130041	4.55356	-1.63648
6701.1	0.220056	-0.00353852	0.220084	0.921243	14.1857	-0.000209501	-17.4726	-6712	-1.73507	1	65	0.0101055	0.0459166	0.140697	0.101604	2.78779	0.404441	0.204241	7.14573	4.54312	-0.0730539	4.54371	-0.921243
4446.42	0.220984	-0.001198	0.220987	0.310608	15.7237	-0.000204095	-17.5581	-29878.2	-0.878073	1	65	0.0104825	0.0474349	0.195208	0.101563	2.74196	0.36464	0.24496	7.01672	4.52508	-0.0245314	4.52515	-0.310608
3012.9	0.221016	0.000375076	0.221016	-0.0972341	17.2655	-0.000199304	-17.6376	140837	0.405609	1	65	0.0106446	0.0481623	0.14335	0.185807	2.67207	0.372566	0.178098	6.88743	4.52455	0.00767842	4.52456	0.0972341
2040.65	0.221664	0.00156162	0.221669	-0.403642	18.8077	-0.000201504	-17.5566	49943.1	2.47865	1	65	0.0107118	0.0483232	0.156791	0.101298	2.72866	0.43588	0.363907	6.82678	4.51111	0.0317808	4.51123	0.403642
1382.79	0.22316	0.00269594	0.223176	-0.692141	20.3501	-0.000197831	-17.5613	42692.7	6.22985	1	65	0.0107458	0.0481494	0.171846	0.130781	2.64342	0.353253	0.185903	6.92712	4.48044	0.054127	4.48076	0.692141
937.097	0.223449	0.00368935	0.22348	-0.945918	21.8913	-0.000203424	-17.306	46034.8	12.5461	1	65	0.0107646	0.0481681	0.204533	0.0783306	2.66363	0.351914	0.239739	6.92521	4.47406	0.0738708	4.47467	0.945918
635.203	0.224615	0.00442607	0.224659	-1.12887	23.4337	-0.000196974	-17.409	56609.6	21.9725	1	65	0.0107614	0.0479011	0.11813	0.0323821	2.61184	0.370462	0.167794	6.94651	4.45034	0.0876944	4.4512	1.12887
430.413	0.225653	0.0050511	0.22571	-1.28231	24.9776	-0.000197104	-17.4659	73206.3	36.6623	1	65	0.0107636	0.0476878	0.193264	0.0963842	2.62359	0.431572	0.283826	6.93301	4.42936	0.0991483	4.43047	1.28231
291.586	0.227192	0.00594919	0.22727	-1.49999	26.5177	-0.000204859	-17.5264	91747.8	62.8675	1	65	0.0107694	0.0473858	0.153703	0.0909732	2.6721	0.348131	0.196874	7.05516	4.39854	0.115179	4.40005	1.49999
197.535	0.228224	0.00683827	0.228326	-1.71624	28.0643	-0.000209892	-17.4869	117823	105.684	1	65	0.0107693	0.0471664	0.121085	0.0759718	2.6463	0.475215	0.138818	7.01655	4.37773	0.13117	4.37969	1.71624
133.929	0.230064	0.00811558	0.230207	-2.02029	29.6124	-0.000203331	-17.4767	146429	181.982	1	65	0.0107657	0.046765	0.172501	0.0954169	2.64049	0.352884	0.117251	7.07392	4.34121	0.153137	4.34391	2.02029
90.7257	0.232008	0.00963093	0.232208	-2.37705	31.3971	-0.000210694	0.0367537	182147	313.331	1	37	0.0107748	0.0464016	0.126002	0.0618708	2.4423	0.120381	0.0433349	0.452836	4.30278	0.178613	4.30649	2.37705
61.4754	0.234381	0.0109899	0.234638	-2.68458	32.9309	-0.000211495	0.00928361	235573	516.79	1	37	0.0107738	0.0459166	0.125469	0.0735606	2.50769	0.123149	0.045024	0.458666	4.2572	0.199616	4.26188	2.68458
41.6667	0.237208	0.0127428	0.23755	-3.07497	34.4557	-0.000219287	0.0375923	299754	862.553	1	37	0.0107757	0.0453618	0.147277	0.0636901	2.4707	0.120305	0.0611838	0.442838	4.20358	0.225816	4.20964	3.07497
28.2379	0.240185	0.0147332	0.240637	-3.51019	36.0282	-0.000209184	0.0567691	382551	1434.04	1	37	0.0107687	0.0447508	0.117895	0.0348911	2.44742	0.130554	0.126548	0.485425	4.14784	0.254433	4.15564	3.51019
19.1248	0.243924	0.0167941	0.244501	-3.93859	37.6069	-0.000204356	0.0308086	495524	2337.86	1	37	0.0107709	0.0440527	0.153381	0.0928859	2.47618	0.121178	0.161275	0.471708	4.0803	0.280928	4.08996	3.93859
12.9632	0.248168	0.0184761	0.248855	-4.25781	39.1902	-0.000206034	0.0118647	664504	3662.9	1	37	0.0107722	0.0432872	0.133631	0.0381965	1.78785	0.126434	0.280046	0.402841	4.00731	0.298344	4.0184	4.25781
8.78796	0.25271	0.020633	0.253551	-4.66768	40.7453	-0.000205139	-0.00248542	877746	5812.51	1	37	0.0107684	0.0424702	0.102168	0.0407673	1.74917	0.146314	0.370838	0.340568	3.9309	0.320946	3.94398	4.66768
5.95238	0.257948	0.0231291	0.258983	-5.12378	42.6308	-0.000205841	0.0274428	1.15603e+06	9220.35	1	37	0.010768	0.041578	0.162197	0.0383708	1.39857	0.140712	0.460445	0.303319	3.84583	0.34484	3.86126	5.12378
4.03122	0.264261	0.0269489	0.265631	-5.82281	45.0791	-0.000199896	-0.136528	1.46502e+06	15078.8	1	37	0.010767	0.0405335	0.122834	0.0373123	1.21378	0.412375	0.518758	0.342557	3.74519	0.381929	3.76462	5.82281
2.7326	0.270189	0.0296327	0.271809	-6.25885	48.3869	-0.00020379	0.322628	1.9655e+06	23360.9	1	37	0.0107655	0.0396071	0.0950688	0.0373972	1.03274	0.541195	0.396081	0.383811	3.65713	0.401092	3.67906	6.25885
1.85131	0.27747	0.032073	0.279318	-6.59361	52.9817	-0.000197717	-0.0385442	2.68042e+06	35341.5	1	37	0.0107641	0.0385371	0.0943447	0.0596433	0.762692	0.375808	1.32441	0.562704	3.55647	0.411096	3.58015	6.59361
1.25542	0.286283	0.0346763	0.288376	-6.90635	61.1249	-0.000191915	0.0784999	3.65592e+06	52862.2	1	38	0.0107586	0.0373077	0.100079	0.0346976	0.630111	0.337359	1.42913	0.681803	3.44253	0.41698	3.4677	6.90635
0.850342	0.296519	0.0383882	0.298993	-7.37664	70.451	-0.000205214	0.00468855	4.87561e+06	80371.2	1	38	0.0107622	0.0359948	0.106391	0.0321787	0.522658	0.472016	0.236419	1.59384	3.31688	0.429412	3.34456	7.37664
0.576483	0.308484	0.0414429	0.311255	-7.65151	83.926	-0.000196398	0.0535891	6.66168e+06	118100	1	38	0.010762	0.034576	0.101159	0.0398995	0.419771	1.07534	0.144327	1.31916	3.18419	0.427775	3.21279	7.65151
0.390654	0.322652	0.0414916	0.325309	-7.32777	103.574	-0.000190863	0.0425404	9.819e+06	159734	1	38	0.0107593	0.033074	0.0941847	0.0882995	0.352825	1.22557	0.115735	1.3111	3.0489	0.392075	3.074	7.32777
0.264472	0.336132	0.0368696	0.338148	-6.25962	132.347	-0.00018423	0.0516207	1.6322e+07	194042	1	38	0.0107629	0.031829	0.0976194	0.046623	0.294434	0.132474	0.0533463	1.78198	2.93965	0.322444	2.95728	6.25962
0.179313	0.34579	0.0302514	0.347111	-4.99978	174.559	-0.000192632	0.0275533	2.93402e+07	222852	1	38	0.010759	0.0309959	0.101344	0.0472576	0.251216	0.132656	0.0608359	1.93467	2.86996	0.251078	2.88092	4.99978
0.121509	0.352101	0.0225026	0.35282	-3.65678	236.621	-0.000175983	0.0481093	5.82076e+07	236778	1	38	0.0107574	0.0304899	0.0983156	0.0507463	0.213528	0.129704	0.0603758	1.92361	2.82854	0.180771	2.83431	3.65678
0.0999518	0.353839	0.0190718	0.354353	-3.08524	277.918	-0.000196981	0.023929	8.34905e+07	241852	1	38	0.0107593	0.0303633	0.0971549	0.061409	0.200768	0.125831	0.0471506	1.85872	2.81795	0.151887	2.82205	3.08524